{
  "resourceType": "Bundle",
  "id": "t1d-patient-data-example",
  "meta": {
    "profile": [
      "http://t1dexchange.org/fhir/StructureDefinition/t1d-patient-data-bundle"
    ]
  },
  "type": "collection",
  "timestamp": "2024-01-15T10:30:00Z",
  "entry": [
    {
      "fullUrl": "http://example.org/Patient/T1DPatientExample",
      "resource": {
        "resourceType": "Patient",
        "id": "T1DPatientExample",
        "meta": {
          "profile": [
            "http://t1dexchange.org/fhir/StructureDefinition/t1d-patient"
          ]
        },
        "identifier": [
          {
            "type": {
              "coding": [
                {
                  "code": "T1D-ID",
                  "system": "http://t1dexchange.org/fhir/CodeSystem/t1d-identifier-type"
                }
              ]
            },
            "system": "http://t1dexchange.org/fhir/patient-id",
            "value": "T1D-12345"
          },
          {
            "type": {
              "coding": [
                {
                  "code": "MR",
                  "system": "http://terminology.hl7.org/CodeSystem/v2-0203"
                }
              ]
            },
            "system": "http://hospital.example.org/mrn",
            "value": "MRN-67890"
          }
        ],
        "extension": [
          {
            "url": "http://t1dexchange.org/fhir/StructureDefinition/t1d-education-level",
            "valueCodeableConcept": {
              "coding": [
                {
                  "code": "ELEM",
                  "system": "http://terminology.hl7.org/CodeSystem/v3-EducationLevel",
                  "version": "3.0.0",
                  "display": "Elementary School"
                }
              ]
            }
          }
        ],
        "active": true,
        "name": [
          {
            "family": "Smith",
            "given": [
              "John"
            ]
          }
        ],
        "gender": "male",
        "birthDate": "2010-05-15"
      }
    },
    {
      "fullUrl": "http://example.org/Encounter/T1DEncounterExample",
      "resource": {
        "resourceType": "Encounter",
        "id": "T1DEncounterExample",
        "meta": {
          "profile": [
            "http://t1dexchange.org/fhir/StructureDefinition/t1d-encounter"
          ]
        },
        "identifier": [
          {
            "type": {
              "coding": [
                {
                  "code": "T1D-ENCOUNTER-ID",
                  "system": "http://t1dexchange.org/fhir/CodeSystem/t1d-identifier-type"
                }
              ]
            },
            "system": "http://t1dexchange.org/fhir/encounter-id",
            "value": "ENC-12345"
          }
        ],
        "extension": [
          {
            "url": "http://t1dexchange.org/fhir/StructureDefinition/t1d-encounter-location",
            "valueString": "Exam Room 3"
          },
          {
            "valueQuantity": {
              "unit": "min",
              "system": "http://unitsofmeasure.org",
              "value": 30
            },
            "url": "http://t1dexchange.org/fhir/StructureDefinition/t1d-encounter-duration"
          }
        ],
        "status": "finished",
        "class": {
          "code": "AMB",
          "system": "http://terminology.hl7.org/CodeSystem/v3-ActCode",
          "display": "ambulatory"
        },
        "type": [
          {
            "coding": [
              {
                "code": "390906007",
                "system": "http://snomed.info/sct",
                "display": "Follow-up encounter"
              }
            ]
          }
        ],
        "subject": {
          "reference": "Patient/T1DPatientExample"
        },
        "participant": [
          {
            "individual": {
              "reference": "Practitioner/T1DProviderExample"
            }
          }
        ],
        "period": {
          "start": "2024-01-15T09:00:00Z",
          "end": "2024-01-15T09:30:00Z"
        },
        "reasonCode": [
          {
            "coding": [
              {
                "code": "46635009",
                "system": "http://snomed.info/sct",
                "display": "Type 1 diabetes mellitus"
              }
            ]
          }
        ],
        "serviceProvider": {
          "reference": "Organization/T1DOrganizationExample"
        }
      }
    },
    {
      "fullUrl": "http://example.org/Observation/T1DGlucoseObservationExample",
      "resource": {
        "resourceType": "Observation",
        "id": "T1DGlucoseObservationExample",
        "meta": {
          "profile": [
            "http://t1dexchange.org/fhir/StructureDefinition/t1d-glucose-observation"
          ]
        },
        "category": [
          {
            "coding": [
              {
                "code": "vital-signs",
                "system": "http://terminology.hl7.org/CodeSystem/observation-category"
              }
            ]
          }
        ],
        "valueQuantity": {
          "system": "http://unitsofmeasure.org",
          "value": 150,
          "unit": "mg/dL"
        },
        "component": [
          {
            "code": {
              "coding": [
                {
                  "code": "bgm-mean",
                  "system": "http://t1dexchange.org/fhir/CodeSystem/t1d-codes"
                }
              ]
            },
            "valueQuantity": {
              "unit": "mg/dL",
              "value": 145,
              "system": "http://unitsofmeasure.org"
            }
          }
        ],
        "status": "final",
        "code": {
          "coding": [
            {
              "code": "2339-0",
              "system": "http://loinc.org",
              "display": "Glucose [Mass/volume] in Blood"
            }
          ]
        },
        "subject": {
          "reference": "Patient/T1DPatientExample"
        },
        "encounter": {
          "reference": "Encounter/T1DEncounterExample"
        },
        "effectiveDateTime": "2024-01-15T09:15:00Z",
        "performer": [
          {
            "reference": "Practitioner/T1DProviderExample"
          }
        ]
      }
    },
    {
      "fullUrl": "http://example.org/Observation/T1DHbA1cObservationExample",
      "resource": {
        "resourceType": "Observation",
        "id": "T1DHbA1cObservationExample",
        "meta": {
          "profile": [
            "http://t1dexchange.org/fhir/StructureDefinition/t1d-hba1c-observation"
          ]
        },
        "category": [
          {
            "coding": [
              {
                "code": "laboratory",
                "system": "http://terminology.hl7.org/CodeSystem/observation-category"
              }
            ]
          }
        ],
        "code": {
          "coding": [
            {
              "code": "4548-4",
              "system": "http://loinc.org",
              "display": "Hemoglobin A1c/Hemoglobin.total in Blood"
            }
          ]
        },
        "valueQuantity": {
          "system": "http://unitsofmeasure.org",
          "value": 7.2,
          "unit": "%"
        },
        "status": "final",
        "subject": {
          "reference": "Patient/T1DPatientExample"
        },
        "encounter": {
          "reference": "Encounter/T1DEncounterExample"
        },
        "effectiveDateTime": "2024-01-15T09:15:00Z",
        "performer": [
          {
            "reference": "Practitioner/T1DProviderExample"
          }
        ]
      }
    },
    {
      "fullUrl": "http://example.org/Observation/T1DSDOHObservationExample",
      "resource": {
        "resourceType": "Observation",
        "id": "T1DSDOHObservationExample",
        "meta": {
          "profile": [
            "http://t1dexchange.org/fhir/StructureDefinition/t1d-sdoh-observation"
          ]
        },
        "category": [
          {
            "coding": [
              {
                "code": "social-history",
                "system": "http://terminology.hl7.org/CodeSystem/observation-category"
              }
            ]
          }
        ],
        "status": "final",
        "code": {
          "coding": [
            {
              "code": "93030-5",
              "system": "http://loinc.org",
              "display": "Has lack of transportation kept you from medical appointments, meetings, work, or from getting things needed for daily living"
            }
          ]
        },
        "subject": {
          "reference": "Patient/T1DPatientExample"
        },
        "encounter": {
          "reference": "Encounter/T1DEncounterExample"
        },
        "effectiveDateTime": "2024-01-15T09:15:00Z",
        "performer": [
          {
            "reference": "Practitioner/T1DProviderExample"
          }
        ],
        "valueCodeableConcept": {
          "coding": [
            {
              "code": "LA32-8",
              "system": "http://loinc.org",
              "display": "No"
            }
          ]
        }
      }
    },
    {
      "fullUrl": "http://example.org/Condition/T1DConditionExample",
      "resource": {
        "resourceType": "Condition",
        "id": "T1DConditionExample",
        "meta": {
          "profile": [
            "http://t1dexchange.org/fhir/StructureDefinition/t1d-condition"
          ]
        },
        "extension": [
          {
            "url": "http://t1dexchange.org/fhir/StructureDefinition/t1d-diagnosis-date",
            "valueDate": "2010-08-20"
          },
          {
            "url": "http://t1dexchange.org/fhir/StructureDefinition/t1d-transition-plan",
            "valueCodeableConcept": {
              "coding": [
                {
                  "code": "182836005",
                  "system": "http://snomed.info/sct",
                  "display": "Medication review"
                }
              ]
            }
          }
        ],
        "clinicalStatus": {
          "coding": [
            {
              "code": "active",
              "system": "http://terminology.hl7.org/CodeSystem/condition-clinical"
            }
          ]
        },
        "verificationStatus": {
          "coding": [
            {
              "code": "confirmed",
              "system": "http://terminology.hl7.org/CodeSystem/condition-ver-status"
            }
          ]
        },
        "category": [
          {
            "coding": [
              {
                "code": "problem-list-item",
                "system": "http://terminology.hl7.org/CodeSystem/condition-category"
              }
            ]
          }
        ],
        "code": {
          "coding": [
            {
              "code": "46635009",
              "system": "http://snomed.info/sct",
              "display": "Type 1 diabetes mellitus"
            }
          ]
        },
        "subject": {
          "reference": "Patient/T1DPatientExample"
        },
        "encounter": {
          "reference": "Encounter/T1DEncounterExample"
        },
        "onsetDateTime": "2010-08-20",
        "recordedDate": "2024-01-15",
        "recorder": {
          "reference": "Practitioner/T1DProviderExample"
        }
      }
    },
    {
      "fullUrl": "http://example.org/MedicationRequest/T1DMedicationRequestExample",
      "resource": {
        "resourceType": "MedicationRequest",
        "id": "T1DMedicationRequestExample",
        "meta": {
          "profile": [
            "http://t1dexchange.org/fhir/StructureDefinition/t1d-medication-request"
          ]
        },
        "extension": [
          {
            "url": "http://t1dexchange.org/fhir/StructureDefinition/t1d-insulin-regimen",
            "valueCodeableConcept": {
              "coding": [
                {
                  "code": "basal-bolus",
                  "system": "http://t1dexchange.org/fhir/CodeSystem/t1d-codes"
                }
              ]
            }
          },
          {
            "url": "http://t1dexchange.org/fhir/StructureDefinition/t1d-insulin-delivery-method",
            "valueCodeableConcept": {
              "coding": [
                {
                  "code": "61968008",
                  "system": "http://snomed.info/sct"
                }
              ]
            }
          }
        ],
        "status": "active",
        "intent": "order",
        "medicationCodeableConcept": {
          "coding": [
            {
              "system": "http://www.nlm.nih.gov/research/umls/rxnorm",
              "code": "253182",
              "display": "insulin, regular, human"
            }
          ]
        },
        "subject": {
          "reference": "Patient/T1DPatientExample"
        },
        "encounter": {
          "reference": "Encounter/T1DEncounterExample"
        },
        "authoredOn": "2024-01-15",
        "requester": {
          "reference": "Practitioner/T1DProviderExample"
        },
        "dosageInstruction": [
          {
            "timing": {
              "repeat": {
                "frequency": 4,
                "period": 1,
                "periodUnit": "d"
              }
            },
            "route": {
              "coding": [
                {
                  "code": "263887005",
                  "system": "http://snomed.info/sct",
                  "display": "Subcutaneous"
                }
              ]
            },
            "doseAndRate": [
              {
                "doseQuantity": {
                  "value": 10,
                  "unit": "units"
                }
              }
            ]
          }
        ]
      }
    }
  ]
}
