{
  "resourceType": "Bundle",
  "id": "t1d-data-submission-example",
  "meta": {
    "profile": [
      "http://t1dexchange.org/fhir/StructureDefinition/t1d-data-submission-bundle"
    ]
  },
  "type": "transaction",
  "timestamp": "2024-01-15T10:30:00Z",
  "entry": [
    {
      "fullUrl": "urn:uuid:12345678-1234-5678-9abc-123456789abc",
      "resource": {
        "resourceType": "Patient",
        "id": "T1DPatientExample",
        "meta": {
          "profile": [
            "http://t1dexchange.org/fhir/StructureDefinition/t1d-patient"
          ]
        },
        "identifier": [
          {
            "type": {
              "coding": [
                {
                  "code": "T1D-ID",
                  "system": "http://t1dexchange.org/fhir/CodeSystem/t1d-identifier-type"
                }
              ]
            },
            "system": "http://t1dexchange.org/fhir/patient-id",
            "value": "T1D-12345"
          },
          {
            "type": {
              "coding": [
                {
                  "code": "MR",
                  "system": "http://terminology.hl7.org/CodeSystem/v2-0203"
                }
              ]
            },
            "system": "http://hospital.example.org/mrn",
            "value": "MRN-67890"
          }
        ],
        "active": true,
        "name": [
          {
            "family": "Smith",
            "given": [
              "John"
            ]
          }
        ],
        "gender": "male",
        "birthDate": "2010-05-15"
      },
      "request": {
        "method": "POST",
        "url": "Patient",
        "ifNoneExist": "identifier=http://t1dexchange.org/patient-id|T1D-001"
      }
    },
    {
      "fullUrl": "urn:uuid:12345678-1234-5678-9abc-123456789abd",
      "resource": {
        "resourceType": "Encounter",
        "id": "T1DEncounterExample",
        "meta": {
          "profile": [
            "http://t1dexchange.org/fhir/StructureDefinition/t1d-encounter"
          ]
        },
        "identifier": [
          {
            "type": {
              "coding": [
                {
                  "code": "T1D-ENCOUNTER-ID",
                  "system": "http://t1dexchange.org/fhir/CodeSystem/t1d-identifier-type"
                }
              ]
            },
            "system": "http://t1dexchange.org/fhir/encounter-id",
            "value": "ENC-12345"
          }
        ],
        "status": "finished",
        "class": {
          "code": "AMB",
          "system": "http://terminology.hl7.org/CodeSystem/v3-ActCode"
        },
        "subject": {
          "reference": "urn:uuid:12345678-1234-5678-9abc-123456789abc"
        },
        "period": {
          "start": "2024-01-15T09:00:00Z",
          "end": "2024-01-15T09:30:00Z"
        }
      },
      "request": {
        "method": "POST",
        "url": "Encounter"
      }
    },
    {
      "fullUrl": "urn:uuid:12345678-1234-5678-9abc-123456789abe",
      "resource": {
        "resourceType": "Observation",
        "id": "T1DGlucoseObservationExample",
        "meta": {
          "profile": [
            "http://t1dexchange.org/fhir/StructureDefinition/t1d-glucose-observation"
          ]
        },
        "status": "final",
        "category": [
          {
            "coding": [
              {
                "code": "vital-signs",
                "system": "http://terminology.hl7.org/CodeSystem/observation-category"
              }
            ]
          }
        ],
        "code": {
          "coding": [
            {
              "code": "2339-0",
              "system": "http://loinc.org"
            }
          ]
        },
        "subject": {
          "reference": "urn:uuid:12345678-1234-5678-9abc-123456789abc"
        },
        "encounter": {
          "reference": "urn:uuid:12345678-1234-5678-9abc-123456789abd"
        },
        "effectiveDateTime": "2024-01-15T09:15:00Z",
        "valueQuantity": {
          "value": 150,
          "unit": "mg/dL",
          "system": "http://unitsofmeasure.org"
        },
        "performer": [
          {
            "reference": "urn:uuid:12345678-1234-5678-9abc-123456789ac2"
          }
        ]
      },
      "request": {
        "method": "POST",
        "url": "Observation"
      }
    },
    {
      "fullUrl": "urn:uuid:12345678-1234-5678-9abc-123456789abf",
      "resource": {
        "resourceType": "Observation",
        "id": "T1DHbA1cObservationExample",
        "meta": {
          "profile": [
            "http://t1dexchange.org/fhir/StructureDefinition/t1d-hba1c-observation"
          ]
        },
        "status": "final",
        "category": [
          {
            "coding": [
              {
                "code": "laboratory",
                "system": "http://terminology.hl7.org/CodeSystem/observation-category"
              }
            ]
          }
        ],
        "code": {
          "coding": [
            {
              "system": "http://loinc.org",
              "code": "4548-4",
              "display": "Hemoglobin A1c/Hemoglobin.total in Blood"
            }
          ]
        },
        "subject": {
          "reference": "urn:uuid:12345678-1234-5678-9abc-123456789abc"
        },
        "encounter": {
          "reference": "urn:uuid:12345678-1234-5678-9abc-123456789abd"
        },
        "effectiveDateTime": "2024-01-15T09:15:00Z",
        "valueQuantity": {
          "value": 7.2,
          "unit": "%",
          "system": "http://unitsofmeasure.org"
        },
        "performer": [
          {
            "reference": "urn:uuid:12345678-1234-5678-9abc-123456789ac2"
          }
        ]
      },
      "request": {
        "method": "POST",
        "url": "Observation"
      }
    },
    {
      "fullUrl": "urn:uuid:12345678-1234-5678-9abc-123456789ac0",
      "resource": {
        "resourceType": "Condition",
        "id": "T1DConditionExample",
        "meta": {
          "profile": [
            "http://t1dexchange.org/fhir/StructureDefinition/t1d-condition"
          ]
        },
        "clinicalStatus": {
          "coding": [
            {
              "code": "active",
              "system": "http://terminology.hl7.org/CodeSystem/condition-clinical"
            }
          ]
        },
        "verificationStatus": {
          "coding": [
            {
              "code": "confirmed",
              "system": "http://terminology.hl7.org/CodeSystem/condition-ver-status"
            }
          ]
        },
        "category": [
          {
            "coding": [
              {
                "code": "problem-list-item",
                "system": "http://terminology.hl7.org/CodeSystem/condition-category"
              }
            ]
          }
        ],
        "code": {
          "coding": [
            {
              "code": "46635009",
              "system": "http://snomed.info/sct"
            }
          ]
        },
        "subject": {
          "reference": "urn:uuid:12345678-1234-5678-9abc-123456789abc"
        },
        "encounter": {
          "reference": "urn:uuid:12345678-1234-5678-9abc-123456789abd"
        },
        "onsetDateTime": "2010-08-20"
      },
      "request": {
        "method": "POST",
        "url": "Condition"
      }
    },
    {
      "fullUrl": "urn:uuid:12345678-1234-5678-9abc-123456789ac1",
      "resource": {
        "resourceType": "MedicationRequest",
        "id": "T1DMedicationRequestExample",
        "meta": {
          "profile": [
            "http://t1dexchange.org/fhir/StructureDefinition/t1d-medication-request"
          ]
        },
        "status": "active",
        "intent": "order",
        "medicationCodeableConcept": {
          "coding": [
            {
              "system": "http://www.nlm.nih.gov/research/umls/rxnorm",
              "code": "253182"
            }
          ]
        },
        "subject": {
          "reference": "urn:uuid:12345678-1234-5678-9abc-123456789abc"
        },
        "encounter": {
          "reference": "urn:uuid:12345678-1234-5678-9abc-123456789abd"
        },
        "authoredOn": "2024-01-15"
      },
      "request": {
        "method": "POST",
        "url": "MedicationRequest"
      }
    },
    {
      "fullUrl": "urn:uuid:12345678-1234-5678-9abc-123456789ac2",
      "resource": {
        "resourceType": "Practitioner",
        "id": "T1DProviderExampleBundle",
        "meta": {
          "profile": [
            "http://t1dexchange.org/fhir/StructureDefinition/t1d-provider"
          ]
        },
        "identifier": [
          {
            "type": {
              "coding": [
                {
                  "code": "T1D-PROVIDER-ID",
                  "system": "http://t1dexchange.org/fhir/CodeSystem/t1d-identifier-type"
                }
              ]
            },
            "system": "http://t1dexchange.org/fhir/provider-id",
            "value": "PROV-12345"
          }
        ],
        "active": true,
        "name": [
          {
            "family": "Johnson",
            "given": [
              "Sarah"
            ]
          }
        ],
        "qualification": [
          {
            "code": {
              "coding": [
                {
                  "code": "MD",
                  "system": "http://terminology.hl7.org/CodeSystem/v2-0360"
                }
              ]
            }
          }
        ]
      },
      "request": {
        "method": "POST",
        "url": "Practitioner"
      }
    }
  ]
}
